# Filter ID: ED151
# Gemini Filter Name: CH4long_G1110
# 42mm diameter BK7 6mm thickness
# Central Wavelength: 1.690 um
# Note: Measurements taken at room temp and then calculated to 
# 70K using correlation measurements from Cold test witness
# Created: 2012aug16
# Author: R. Carrasco
# Lambda(nm) Transmission
1570.00    0.00000
1580.00    0.00000
1590.00    0.00068
1590.50    0.00073
1591.00    0.00076
1591.50    0.00080
1592.00    0.00079
1592.50    0.00089
1593.00    0.00092
1593.50    0.00096
1594.00    0.00107
1594.50    0.00113
1595.00    0.00114
1595.50    0.00121
1596.00    0.00124
1596.50    0.00132
1597.00    0.00138
1597.50    0.00144
1598.00    0.00158
1598.50    0.00161
1599.00    0.00177
1599.50    0.00183
1600.00    0.00193
1600.50    0.00204
1601.00    0.00217
1601.50    0.00225
1602.00    0.00243
1602.50    0.00261
1603.00    0.00271
1603.50    0.00295
1604.00    0.00312
1604.50    0.00336
1605.00    0.00346
1605.50    0.00371
1606.00    0.00393
1606.50    0.00416
1607.00    0.00453
1607.50    0.00480
1608.00    0.00507
1608.50    0.00540
1609.00    0.00578
1609.50    0.00614
1610.00    0.00660
1610.50    0.00704
1611.00    0.00752
1611.50    0.00793
1612.00    0.00857
1612.50    0.00912
1613.00    0.00985
1613.50    0.01063
1614.00    0.01134
1614.50    0.01208
1615.00    0.01294
1615.50    0.01385
1616.00    0.01487
1616.50    0.01612
1617.00    0.01735
1617.50    0.01869
1618.00    0.01988
1618.50    0.02140
1619.00    0.02308
1619.50    0.02509
1620.00    0.02707
1620.50    0.02914
1621.00    0.03128
1621.50    0.03363
1622.00    0.03631
1622.50    0.03947
1623.00    0.04286
1623.50    0.04625
1624.00    0.04976
1624.50    0.05341
1625.00    0.05788
1625.50    0.06286
1626.00    0.06829
1626.50    0.07386
1627.00    0.07964
1627.50    0.08571
1628.00    0.09238
1628.50    0.10058
1629.00    0.10930
1629.50    0.11827
1630.00    0.12742
1630.50    0.13710
1631.00    0.14782
1631.50    0.15947
1632.00    0.17328
1632.50    0.18752
1633.00    0.20124
1633.50    0.21577
1634.00    0.23105
1634.50    0.24834
1635.00    0.26710
1635.50    0.28780
1636.00    0.30716
1636.50    0.32631
1637.00    0.34657
1637.50    0.36860
1638.00    0.39150
1638.50    0.41654
1639.00    0.44146
1639.50    0.46430
1640.00    0.48663
1640.50    0.50991
1641.00    0.53546
1641.50    0.56017
1642.00    0.58481
1642.50    0.60725
1643.00    0.62818
1643.50    0.64853
1644.00    0.66930
1644.50    0.68979
1645.00    0.71054
1645.50    0.72891
1646.00    0.74551
1646.50    0.76073
1647.00    0.77457
1647.50    0.79039
1648.00    0.80523
1648.50    0.81761
1649.00    0.82860
1649.50    0.83838
1650.00    0.84793
1650.50    0.85697
1651.00    0.86572
1651.50    0.87350
1652.00    0.88055
1652.50    0.88645
1653.00    0.89138
1653.50    0.89665
1654.00    0.90211
1654.50    0.90663
1655.00    0.91031
1655.50    0.91392
1656.00    0.91692
1656.50    0.91947
1657.00    0.92209
1657.50    0.92467
1658.00    0.92688
1658.50    0.92845
1659.00    0.93006
1659.50    0.93138
1660.00    0.93293
1660.50    0.93434
1661.00    0.93557
1661.50    0.93617
1662.00    0.93691
1662.50    0.93739
1663.00    0.93806
1663.50    0.93861
1664.00    0.93909
1664.50    0.93934
1665.00    0.93971
1665.50    0.93999
1666.00    0.94021
1666.50    0.94028
1667.00    0.94044
1667.50    0.94068
1668.00    0.94091
1668.50    0.94114
1669.00    0.94109
1669.50    0.94112
1670.00    0.94125
1670.50    0.94142
1671.00    0.94152
1671.50    0.94175
1672.00    0.94188
1672.50    0.94200
1673.00    0.94213
1673.50    0.94256
1674.00    0.94291
1674.50    0.94307
1675.00    0.94324
1675.50    0.94380
1676.00    0.94386
1676.50    0.94440
1677.00    0.94471
1677.50    0.94487
1678.00    0.94562
1678.50    0.94604
1679.00    0.94649
1679.50    0.94675
1680.00    0.94730
1680.50    0.94810
1681.00    0.94843
1681.50    0.94923
1682.00    0.94943
1682.50    0.94965
1683.00    0.95035
1683.50    0.95087
1684.00    0.95120
1684.50    0.95131
1685.00    0.95166
1685.50    0.95209
1686.00    0.95247
1686.50    0.95261
1687.00    0.95280
1687.50    0.95275
1688.00    0.95328
1688.50    0.95341
1689.00    0.95347
1689.50    0.95332
1690.00    0.95308
1690.50    0.95299
1691.00    0.95312
1691.50    0.95280
1692.00    0.95248
1692.50    0.95265
1693.00    0.95205
1693.50    0.95188
1694.00    0.95152
1694.50    0.95099
1695.00    0.95053
1695.50    0.95006
1696.00    0.94967
1696.50    0.94948
1697.00    0.94887
1697.50    0.94840
1698.00    0.94801
1698.50    0.94741
1699.00    0.94689
1699.50    0.94637
1700.00    0.94624
1700.50    0.94569
1701.00    0.94535
1701.50    0.94498
1702.00    0.94451
1702.50    0.94402
1703.00    0.94443
1703.50    0.94432
1704.00    0.94411
1704.50    0.94387
1705.00    0.94392
1705.50    0.94377
1706.00    0.94416
1706.50    0.94419
1707.00    0.94415
1707.50    0.94463
1708.00    0.94488
1708.50    0.94490
1709.00    0.94571
1709.50    0.94625
1710.00    0.94653
1710.50    0.94739
1711.00    0.94800
1711.50    0.94856
1712.00    0.94912
1712.50    0.94973
1713.00    0.95036
1713.50    0.95064
1714.00    0.95149
1714.50    0.95208
1715.00    0.95258
1715.50    0.95314
1716.00    0.95363
1716.50    0.95397
1717.00    0.95413
1717.50    0.95437
1718.00    0.95407
1718.50    0.95411
1719.00    0.95395
1719.50    0.95339
1720.00    0.95278
1720.50    0.95235
1721.00    0.95123
1721.50    0.95023
1722.00    0.94883
1722.50    0.94736
1723.00    0.94550
1723.50    0.94327
1724.00    0.94103
1724.50    0.93838
1725.00    0.93573
1725.50    0.93291
1726.00    0.92956
1726.50    0.92599
1727.00    0.92192
1727.50    0.91784
1728.00    0.91345
1728.50    0.90940
1729.00    0.90457
1729.50    0.89923
1730.00    0.89402
1730.50    0.88773
1731.00    0.88175
1731.50    0.87596
1732.00    0.86962
1732.50    0.86279
1733.00    0.85513
1733.50    0.84679
1734.00    0.83863
1734.50    0.83028
1735.00    0.82211
1735.50    0.81285
1736.00    0.80256
1736.50    0.79157
1737.00    0.78018
1737.50    0.76858
1738.00    0.75700
1738.50    0.74518
1739.00    0.73145
1739.50    0.71571
1740.00    0.69912
1740.50    0.68247
1741.00    0.66592
1741.50    0.64969
1742.00    0.63197
1742.50    0.61081
1743.00    0.58924
1743.50    0.56829
1744.00    0.54682
1744.50    0.52624
1745.00    0.50438
1745.50    0.48084
1746.00    0.45626
1746.50    0.43291
1747.00    0.40979
1747.50    0.38767
1748.00    0.36659
1748.50    0.34405
1749.00    0.32114
1749.50    0.30020
1750.00    0.28033
1750.50    0.26135
1751.00    0.24347
1751.50    0.22654
1752.00    0.20911
1752.50    0.19231
1753.00    0.17759
1753.50    0.16371
1754.00    0.15176
1754.50    0.13971
1755.00    0.12850
1755.50    0.11766
1756.00    0.10804
1756.50    0.09923
1757.00    0.09156
1757.50    0.08439
1758.00    0.07739
1758.50    0.07096
1759.00    0.06514
1759.50    0.05985
1760.00    0.05515
1760.50    0.05084
1761.00    0.04679
1761.50    0.04288
1762.00    0.03951
1762.50    0.03627
1763.00    0.03351
1763.50    0.03099
1764.00    0.02859
1764.50    0.02638
1765.00    0.02426
1765.50    0.02239
1766.00    0.02074
1766.50    0.01911
1767.00    0.01780
1767.50    0.01651
1768.00    0.01526
1768.50    0.01413
1769.00    0.01309
1769.50    0.01223
1770.00    0.01133
1770.50    0.01052
1771.00    0.00987
1771.50    0.00909
1772.00    0.00853
1772.50    0.00790
1773.00    0.00737
1773.50    0.00687
1774.00    0.00644
1774.50    0.00606
1775.00    0.00567
1775.50    0.00529
1776.00    0.00495
1776.50    0.00465
1777.00    0.00442
1777.50    0.00410
1778.00    0.00386
1778.50    0.00361
1779.00    0.00343
1779.50    0.00320
1780.00    0.00304
1780.50    0.00287
1781.00    0.00268
1781.50    0.00249
1782.00    0.00234
1782.50    0.00227
1783.00    0.00215
1783.50    0.00203
1784.00    0.00192
1784.50    0.00182
1785.00    0.00171
1785.50    0.00157
1786.00    0.00151
1786.50    0.00148
1787.00    0.00138
1787.50    0.00132
1788.00    0.00129
1788.50    0.00120
1789.00    0.00124
1789.50    0.00107
1790.00    0.00099
1800.00    0.00000
1810.00    0.00000
