# Filter ID: ED144
# Gemini Filter Name: CH4short_G1109
# 42mm diameter BK7 6mm thickness
# Central Wavelength: 1.580 um
# Note: Measurements taken at room temp and then calculated to 
# 70K using correlation measurements from Cold test witness
# Created: 2012aug16
# Author: R. Carrasco
# Lambda(nm) Transmission
1380.00    0.00000
1390.00    0.00000
1400.50    0.00061
1400.75    0.00130
1401.00    0.00029
1401.25    0.00015
1401.50    0.00064
1401.75    0.00088
1402.00    0.00157
1402.25    0.00106
1402.50    0.00002
1402.75    0.00019
1403.00    0.00053
1403.25    0.00093
1403.50    0.00002
1403.75    0.00043
1404.00    0.00050
1404.25    0.00045
1404.50    0.00014
1404.75    0.00157
1405.00    0.00014
1405.25    0.00002
1405.50    0.00150
1405.75    0.00033
1406.00    0.00071
1406.25    0.00081
1406.50    0.00041
1406.75    0.00044
1407.00    0.00045
1407.25    0.00007
1407.50    0.00012
1407.75    0.00050
1408.00    0.00009
1408.25    0.00131
1408.50    0.00131
1408.75    0.00059
1409.00    0.00058
1409.25    0.00046
1409.50    0.00043
1409.75    0.00020
1410.00    0.00025
1410.25    0.00074
1410.50    0.00056
1410.75    0.00155
1411.00    0.00030
1411.25    0.00121
1411.50    0.00035
1411.75    0.00030
1412.00    0.00020
1412.25    0.00033
1412.50    0.00123
1412.75    0.00024
1413.00    0.00042
1413.25    0.00072
1413.50    0.00124
1413.75    0.00066
1414.00    0.00175
1414.25    0.00036
1414.50    0.00050
1414.75    0.00019
1415.00    0.00012
1415.25    0.00107
1415.50    0.00073
1415.75    0.00045
1416.00    0.00060
1416.25    0.00002
1416.50    0.00053
1416.75    0.00038
1417.00    0.00043
1417.25    0.00118
1417.50    0.00009
1417.75    0.00158
1418.00    0.00092
1418.25    0.00029
1418.50    0.00058
1418.75    0.00049
1419.00    0.00002
1419.25    0.00060
1419.50    0.00116
1419.75    0.00040
1420.00    0.00018
1420.25    0.00053
1420.50    0.00033
1420.75    0.00108
1421.00    0.00011
1421.25    0.00009
1421.50    0.00002
1421.75    0.00019
1422.00    0.00045
1422.25    0.00070
1422.50    0.00113
1422.75    0.00031
1423.00    0.00060
1423.25    0.00030
1423.50    0.00082
1423.75    0.00224
1424.00    0.00073
1424.25    0.00050
1424.50    0.00080
1424.75    0.00099
1425.00    0.00083
1425.25    0.00005
1425.50    0.00075
1425.75    0.00009
1426.00    0.00052
1426.25    0.00019
1426.50    0.00036
1426.75    0.00025
1427.00    0.00019
1427.25    0.00005
1427.50    0.00045
1427.75    0.00029
1428.00    0.00019
1428.25    0.00059
1428.50    0.00040
1428.75    0.00104
1429.00    0.00004
1429.25    0.00032
1429.50    0.00054
1429.75    0.00082
1430.00    0.00046
1430.25    0.00009
1430.50    0.00064
1430.75    0.00018
1431.00    0.00018
1431.25    0.00015
1431.50    0.00087
1431.75    0.00017
1432.00    0.00055
1432.25    0.00075
1432.50    0.00053
1432.75    0.00036
1433.00    0.00104
1433.25    0.00141
1433.50    0.00044
1433.75    0.00002
1434.00    0.00091
1434.25    0.00005
1434.50    0.00012
1434.75    0.00053
1435.00    0.00151
1435.25    0.00079
1435.50    0.00044
1435.75    0.00075
1436.00    0.00074
1436.25    0.00043
1436.50    0.00065
1436.75    0.00059
1437.00    0.00022
1437.25    0.00073
1437.50    0.00057
1437.75    0.00143
1438.00    0.00026
1438.25    0.00217
1438.50    0.00056
1438.75    0.00011
1439.00    0.00029
1439.25    0.00061
1439.50    0.00019
1439.75    0.00121
1440.00    0.00120
1440.25    0.00121
1440.50    0.00080
1440.75    0.00043
1441.00    0.00040
1441.25    0.00076
1441.50    0.00053
1441.75    0.00032
1442.00    0.00066
1442.25    0.00103
1442.50    0.00061
1442.75    0.00131
1443.00    0.00060
1443.25    0.00052
1443.50    0.00043
1443.75    0.00066
1444.00    0.00040
1444.25    0.00060
1444.50    0.00140
1444.75    0.00065
1445.00    0.00089
1445.25    0.00070
1445.50    0.00022
1445.75    0.00074
1446.00    0.00067
1446.25    0.00120
1446.50    0.00107
1446.75    0.00047
1447.00    0.00015
1447.25    0.00039
1447.50    0.00039
1447.75    0.00175
1448.00    0.00101
1448.25    0.00043
1448.50    0.00121
1448.75    0.00121
1449.00    0.00080
1449.25    0.00039
1449.50    0.00132
1449.75    0.00003
1450.00    0.00015
1450.25    0.00061
1450.50    0.00074
1450.75    0.00001
1451.00    0.00074
1451.25    0.00009
1451.50    0.00038
1451.75    0.00026
1452.00    0.00089
1452.25    0.00138
1452.50    0.00012
1452.75    0.00088
1453.00    0.00046
1453.25    0.00114
1453.50    0.00100
1453.75    0.00022
1454.00    0.00080
1454.25    0.00101
1454.50    0.00072
1454.75    0.00078
1455.00    0.00048
1455.25    0.00022
1455.50    0.00039
1455.75    0.00005
1456.00    0.00009
1456.25    0.00059
1456.50    0.00080
1456.75    0.00036
1457.00    0.00066
1457.25    0.00052
1457.50    0.00109
1457.75    0.00002
1458.00    0.00053
1458.25    0.00087
1458.50    0.00049
1458.75    0.00161
1459.00    0.00074
1459.25    0.00019
1459.50    0.00046
1459.75    0.00005
1460.00    0.00029
1460.25    0.00067
1460.50    0.00152
1460.75    0.00092
1461.00    0.00053
1461.25    0.00019
1461.50    0.00094
1461.75    0.00086
1462.00    0.00016
1462.25    0.00046
1462.50    0.00092
1462.75    0.00053
1463.00    0.00044
1463.25    0.00156
1463.50    0.00079
1463.75    0.00022
1464.00    0.00087
1464.25    0.00080
1464.50    0.00144
1464.75    0.00127
1465.00    0.00089
1465.25    0.00073
1465.50    0.00059
1465.75    0.00026
1466.00    0.00049
1466.25    0.00018
1466.50    0.00113
1466.75    0.00075
1467.00    0.00113
1467.25    0.00046
1467.50    0.00142
1467.75    0.00029
1468.00    0.00136
1468.25    0.00032
1468.50    0.00036
1468.75    0.00038
1469.00    0.00071
1469.25    0.00154
1469.50    0.00040
1469.75    0.00065
1470.00    0.00129
1470.25    0.00039
1470.50    0.00082
1470.75    0.00207
1471.00    0.00156
1471.25    0.00073
1471.50    0.00012
1471.75    0.00009
1472.00    0.00029
1472.25    0.00033
1472.50    0.00026
1472.75    0.00100
1473.00    0.00005
1473.25    0.00019
1473.50    0.00047
1473.75    0.00094
1474.00    0.00026
1474.25    0.00135
1474.50    0.00073
1474.75    0.00060
1475.00    0.00039
1475.25    0.00049
1475.50    0.00129
1475.75    0.00135
1476.00    0.00121
1476.25    0.00059
1476.50    0.00059
1476.75    0.00033
1477.00    0.00120
1477.25    0.00085
1477.50    0.00054
1477.75    0.00095
1478.00    0.00067
1478.25    0.00046
1478.50    0.00128
1478.75    0.00045
1479.00    0.00073
1479.25    0.00115
1479.50    0.00032
1479.75    0.00025
1480.00    0.00162
1480.25    0.00001
1480.50    0.00136
1480.75    0.00174
1481.00    0.00085
1481.25    0.00140
1481.50    0.00088
1481.75    0.00046
1482.00    0.00108
1482.25    0.00060
1482.50    0.00155
1482.75    0.00142
1483.00    0.00183
1483.25    0.00067
1483.50    0.00100
1483.75    0.00119
1484.00    0.00040
1484.25    0.00190
1484.50    0.00175
1484.75    0.00066
1485.00    0.00108
1485.25    0.00114
1485.50    0.00066
1485.75    0.00039
1486.00    0.00167
1486.25    0.00188
1486.50    0.00137
1486.75    0.00292
1487.00    0.00080
1487.25    0.00106
1487.50    0.00128
1487.75    0.00142
1488.00    0.00154
1488.25    0.00194
1488.50    0.00026
1488.75    0.00203
1489.00    0.00201
1489.25    0.00046
1489.50    0.00184
1489.75    0.00142
1490.00    0.00182
1490.25    0.00277
1490.50    0.00297
1490.75    0.00175
1491.00    0.00243
1491.25    0.00294
1491.50    0.00301
1491.75    0.00229
1492.00    0.00197
1492.25    0.00326
1492.50    0.00318
1492.75    0.00245
1493.00    0.00369
1493.25    0.00148
1493.50    0.00244
1493.75    0.00204
1494.00    0.00316
1494.25    0.00268
1494.50    0.00285
1494.75    0.00333
1495.00    0.00276
1495.25    0.00241
1495.50    0.00280
1495.75    0.00285
1496.00    0.00336
1496.25    0.00209
1496.50    0.00404
1496.75    0.00375
1497.00    0.00302
1497.25    0.00343
1497.50    0.00400
1497.75    0.00372
1498.00    0.00476
1498.25    0.00374
1498.50    0.00473
1498.75    0.00422
1499.00    0.00451
1499.25    0.00378
1499.50    0.00565
1499.75    0.00504
1500.00    0.00537
1500.25    0.00408
1500.50    0.00606
1500.75    0.00545
1501.00    0.00596
1501.25    0.00595
1501.50    0.00618
1501.75    0.00718
1502.00    0.00748
1502.25    0.00790
1502.50    0.00698
1502.75    0.00848
1503.00    0.00682
1503.25    0.00820
1503.50    0.00805
1503.75    0.00782
1504.00    0.00864
1504.25    0.00959
1504.50    0.00939
1504.75    0.00983
1505.00    0.01051
1505.25    0.01017
1505.50    0.01062
1505.75    0.01188
1506.00    0.01145
1506.25    0.01146
1506.50    0.01224
1506.75    0.01335
1507.00    0.01388
1507.25    0.01293
1507.50    0.01505
1507.75    0.01452
1508.00    0.01480
1508.25    0.01622
1508.50    0.01629
1508.75    0.01796
1509.00    0.01720
1509.25    0.01820
1509.50    0.01940
1509.75    0.02005
1510.00    0.01970
1510.25    0.02008
1510.50    0.02142
1510.75    0.02198
1511.00    0.02371
1511.25    0.02511
1511.50    0.02456
1511.75    0.02564
1512.00    0.02587
1512.25    0.02755
1512.50    0.02781
1512.75    0.02960
1513.00    0.03059
1513.25    0.03161
1513.50    0.03300
1513.75    0.03313
1514.00    0.03500
1514.25    0.03604
1514.50    0.03818
1514.75    0.03932
1515.00    0.03918
1515.25    0.04209
1515.50    0.04297
1515.75    0.04377
1516.00    0.04658
1516.25    0.04671
1516.50    0.04881
1516.75    0.05023
1517.00    0.05098
1517.25    0.05355
1517.50    0.05548
1517.75    0.05882
1518.00    0.05971
1518.25    0.06189
1518.50    0.06389
1518.75    0.06674
1519.00    0.06738
1519.25    0.07036
1519.50    0.07292
1519.75    0.07547
1520.00    0.07828
1520.25    0.08007
1520.50    0.08197
1520.75    0.08573
1521.00    0.08755
1521.25    0.09180
1521.50    0.09439
1521.75    0.09843
1522.00    0.10075
1522.25    0.10373
1522.50    0.10769
1522.75    0.10947
1523.00    0.11388
1523.25    0.11789
1523.50    0.12091
1523.75    0.12510
1524.00    0.12869
1524.25    0.13295
1524.50    0.13724
1524.75    0.14157
1525.00    0.14429
1525.25    0.14892
1525.50    0.15447
1525.75    0.15910
1526.00    0.16400
1526.25    0.16810
1526.50    0.17347
1526.75    0.17801
1527.00    0.18326
1527.25    0.18997
1527.50    0.19389
1527.75    0.19947
1528.00    0.20574
1528.25    0.21094
1528.50    0.21680
1528.75    0.22226
1529.00    0.22942
1529.25    0.23454
1529.50    0.24096
1529.75    0.24779
1530.00    0.25426
1530.25    0.26144
1530.50    0.26746
1530.75    0.27467
1531.00    0.27948
1531.25    0.28816
1531.50    0.29478
1531.75    0.30217
1532.00    0.30944
1532.25    0.31502
1532.50    0.32377
1532.75    0.32947
1533.00    0.33820
1533.25    0.34513
1533.50    0.35256
1533.75    0.36136
1534.00    0.36599
1534.25    0.37604
1534.50    0.38203
1534.75    0.39056
1535.00    0.39916
1535.25    0.40563
1535.50    0.41442
1535.75    0.42006
1536.00    0.42917
1536.25    0.43670
1536.50    0.44422
1536.75    0.45254
1537.00    0.45845
1537.25    0.46798
1537.50    0.47351
1537.75    0.48164
1538.00    0.49084
1538.25    0.49584
1538.50    0.50534
1538.75    0.51173
1539.00    0.51978
1539.25    0.52657
1539.50    0.53348
1539.75    0.54053
1540.00    0.54667
1540.25    0.55480
1540.50    0.56068
1540.75    0.56851
1541.00    0.57551
1541.25    0.58093
1541.50    0.58870
1541.75    0.59472
1542.00    0.60165
1542.25    0.60715
1542.50    0.61281
1542.75    0.62082
1543.00    0.62654
1543.25    0.63331
1543.50    0.63848
1543.75    0.64418
1544.00    0.65061
1544.25    0.65532
1544.50    0.66080
1544.75    0.66735
1545.00    0.67287
1545.25    0.67639
1545.50    0.68208
1545.75    0.68905
1546.00    0.69268
1546.25    0.69982
1546.50    0.70342
1546.75    0.70925
1547.00    0.71352
1547.25    0.71695
1547.50    0.72321
1547.75    0.72735
1548.00    0.73178
1548.25    0.73585
1548.50    0.74017
1548.75    0.74458
1549.00    0.74745
1549.25    0.75151
1549.50    0.75579
1549.75    0.76140
1550.00    0.76333
1550.25    0.76679
1550.50    0.77273
1550.75    0.77552
1551.00    0.77947
1551.25    0.78219
1551.50    0.78589
1551.75    0.78943
1552.00    0.79134
1552.25    0.79452
1552.50    0.79855
1552.75    0.80215
1553.00    0.80454
1553.25    0.80898
1553.50    0.81048
1553.75    0.81521
1554.00    0.81622
1554.25    0.81972
1554.50    0.82329
1554.75    0.82520
1555.00    0.82850
1555.25    0.83036
1555.50    0.83338
1555.75    0.83357
1556.00    0.83693
1556.25    0.84017
1556.50    0.84114
1556.75    0.84454
1557.00    0.84613
1557.25    0.84731
1557.50    0.84922
1557.75    0.85237
1558.00    0.85440
1558.25    0.85564
1558.50    0.85689
1558.75    0.85935
1559.00    0.86075
1559.25    0.86209
1559.50    0.86463
1559.75    0.86595
1560.00    0.86576
1560.25    0.86891
1560.50    0.86981
1560.75    0.86925
1561.00    0.87130
1561.25    0.87279
1561.50    0.87257
1561.75    0.87478
1562.00    0.87453
1562.25    0.87703
1562.50    0.87810
1562.75    0.87890
1563.00    0.88174
1563.25    0.87930
1563.50    0.88049
1563.75    0.88080
1564.00    0.88350
1564.25    0.88328
1564.50    0.88348
1564.75    0.88398
1565.00    0.88498
1565.25    0.88490
1565.50    0.88611
1565.75    0.88707
1566.00    0.88565
1566.25    0.88714
1566.50    0.88754
1566.75    0.88744
1567.00    0.88776
1567.25    0.88823
1567.50    0.88870
1567.75    0.88733
1568.00    0.88811
1568.25    0.88858
1568.50    0.88909
1568.75    0.88878
1569.00    0.88976
1569.25    0.88872
1569.50    0.88862
1569.75    0.88712
1570.00    0.88843
1570.25    0.88994
1570.50    0.88951
1570.75    0.88861
1571.00    0.88736
1571.25    0.88748
1571.50    0.88911
1571.75    0.88887
1572.00    0.88765
1572.25    0.88929
1572.50    0.88882
1572.75    0.88870
1573.00    0.88797
1573.25    0.88745
1573.50    0.88822
1573.75    0.88820
1574.00    0.88813
1574.25    0.88837
1574.50    0.88902
1574.75    0.88836
1575.00    0.88865
1575.25    0.88868
1575.50    0.88787
1575.75    0.88880
1576.00    0.88803
1576.25    0.88850
1576.50    0.88839
1576.75    0.88827
1577.00    0.88793
1577.25    0.88814
1577.50    0.88752
1577.75    0.88906
1578.00    0.88798
1578.25    0.88761
1578.50    0.88859
1578.75    0.88829
1579.00    0.88808
1579.25    0.88911
1579.50    0.88998
1579.75    0.88796
1580.00    0.88917
1580.25    0.88903
1580.50    0.88961
1580.75    0.89003
1581.00    0.89067
1581.25    0.89075
1581.50    0.89024
1581.75    0.89076
1582.00    0.88924
1582.25    0.89108
1582.50    0.88933
1582.75    0.89219
1583.00    0.89177
1583.25    0.89176
1583.50    0.89139
1583.75    0.89247
1584.00    0.89111
1584.25    0.89249
1584.50    0.89192
1584.75    0.89323
1585.00    0.89274
1585.25    0.89309
1585.50    0.89182
1585.75    0.89301
1586.00    0.89198
1586.25    0.89419
1586.50    0.89242
1586.75    0.89344
1587.00    0.89503
1587.25    0.89389
1587.50    0.89443
1587.75    0.89554
1588.00    0.89436
1588.25    0.89373
1588.50    0.89456
1588.75    0.89471
1589.00    0.89363
1589.25    0.89349
1589.50    0.89513
1589.75    0.89478
1590.00    0.89245
1590.25    0.89457
1590.50    0.89355
1590.75    0.89327
1591.00    0.89459
1591.25    0.89220
1591.50    0.89219
1591.75    0.89310
1592.00    0.89325
1592.25    0.89258
1592.50    0.89186
1592.75    0.89220
1593.00    0.89095
1593.25    0.89253
1593.50    0.89227
1593.75    0.89203
1594.00    0.89082
1594.25    0.89072
1594.50    0.88979
1594.75    0.89088
1595.00    0.88947
1595.25    0.89016
1595.50    0.88927
1595.75    0.88776
1596.00    0.88824
1596.25    0.88676
1596.50    0.88687
1596.75    0.88600
1597.00    0.88512
1597.25    0.88509
1597.50    0.88278
1597.75    0.88400
1598.00    0.88240
1598.25    0.88223
1598.50    0.88272
1598.75    0.87975
1599.00    0.88099
1599.25    0.88050
1599.50    0.88060
1599.75    0.87876
1600.00    0.87786
1600.25    0.87808
1600.50    0.87738
1600.75    0.87673
1601.00    0.87672
1601.25    0.87496
1601.50    0.87518
1601.75    0.87362
1602.00    0.87251
1602.25    0.87416
1602.50    0.87255
1602.75    0.87322
1603.00    0.87328
1603.25    0.87143
1603.50    0.86921
1603.75    0.86977
1604.00    0.87016
1604.25    0.86950
1604.50    0.86997
1604.75    0.87030
1605.00    0.87051
1605.25    0.86947
1605.50    0.86956
1605.75    0.86923
1606.00    0.86997
1606.25    0.87033
1606.50    0.86914
1606.75    0.86930
1607.00    0.86959
1607.25    0.87090
1607.50    0.87148
1607.75    0.87163
1608.00    0.87050
1608.25    0.87188
1608.50    0.87311
1608.75    0.87221
1609.00    0.87312
1609.25    0.87466
1609.50    0.87503
1609.75    0.87558
1610.00    0.87694
1610.25    0.87572
1610.50    0.87730
1610.75    0.87976
1611.00    0.88090
1611.25    0.88084
1611.50    0.88209
1611.75    0.88355
1612.00    0.88256
1612.25    0.88561
1612.50    0.88609
1612.75    0.88835
1613.00    0.88941
1613.25    0.89092
1613.50    0.89018
1613.75    0.89322
1614.00    0.89501
1614.25    0.89447
1614.50    0.89488
1614.75    0.89593
1615.00    0.89807
1615.25    0.89866
1615.50    0.89902
1615.75    0.90020
1616.00    0.90000
1616.25    0.90017
1616.50    0.90072
1616.75    0.90056
1617.00    0.90056
1617.25    0.89821
1617.50    0.89779
1617.75    0.89858
1618.00    0.89739
1618.25    0.89504
1618.50    0.89275
1618.75    0.89044
1619.00    0.88791
1619.25    0.88524
1619.50    0.88298
1619.75    0.87861
1620.00    0.87480
1620.25    0.86919
1620.50    0.86229
1620.75    0.85976
1621.00    0.85132
1621.25    0.84587
1621.50    0.83825
1621.75    0.83041
1622.00    0.82459
1622.25    0.81229
1622.50    0.80435
1622.75    0.79273
1623.00    0.78319
1623.25    0.77163
1623.50    0.75814
1623.75    0.74965
1624.00    0.73282
1624.25    0.72257
1624.50    0.70921
1624.75    0.69387
1625.00    0.68094
1625.25    0.66359
1625.50    0.65203
1625.75    0.63367
1626.00    0.61904
1626.25    0.60414
1626.50    0.58686
1626.75    0.57263
1627.00    0.55417
1627.25    0.54157
1627.50    0.52274
1627.75    0.50870
1628.00    0.49238
1628.25    0.47343
1628.50    0.46082
1628.75    0.44276
1629.00    0.43125
1629.25    0.41472
1629.50    0.39845
1629.75    0.38617
1630.00    0.36820
1630.25    0.35818
1630.50    0.34234
1630.75    0.33074
1631.00    0.31632
1631.25    0.30336
1631.50    0.29328
1631.75    0.27922
1632.00    0.26899
1632.25    0.25735
1632.50    0.24727
1632.75    0.23857
1633.00    0.22756
1633.25    0.21917
1633.50    0.20782
1633.75    0.20023
1634.00    0.19087
1634.25    0.18233
1634.50    0.17639
1634.75    0.16712
1635.00    0.16142
1635.25    0.15418
1635.50    0.14756
1635.75    0.14115
1636.00    0.13495
1636.25    0.13055
1636.50    0.12291
1636.75    0.11913
1637.00    0.11331
1637.25    0.10740
1637.50    0.10424
1637.75    0.09914
1638.00    0.09613
1638.25    0.09139
1638.50    0.08833
1638.75    0.08371
1639.00    0.08113
1639.25    0.07746
1639.50    0.07393
1639.75    0.07047
1640.00    0.06738
1640.25    0.06511
1640.50    0.06218
1640.75    0.06039
1641.00    0.05749
1641.25    0.05459
1641.50    0.05200
1641.75    0.05057
1642.00    0.04878
1642.25    0.04593
1642.50    0.04411
1642.75    0.04261
1643.00    0.04119
1643.25    0.03929
1643.50    0.03763
1643.75    0.03587
1644.00    0.03582
1644.25    0.03299
1644.50    0.03222
1644.75    0.03138
1645.00    0.02993
1645.25    0.02993
1645.50    0.02643
1645.75    0.02650
1646.00    0.02641
1646.25    0.02465
1646.50    0.02331
1646.75    0.02373
1647.00    0.02090
1647.25    0.02119
1647.50    0.02039
1647.75    0.01962
1648.00    0.01919
1648.25    0.01865
1648.50    0.01795
1648.75    0.01661
1649.00    0.01575
1649.25    0.01581
1649.50    0.01419
1649.75    0.01456
1650.00    0.01461
1650.25    0.01336
1650.50    0.01276
1650.75    0.01207
1651.00    0.01095
1651.25    0.01160
1651.50    0.01080
1651.75    0.01113
1652.00    0.01204
1652.25    0.01041
1652.50    0.01044
1652.75    0.00975
1653.00    0.01011
1653.25    0.00926
1653.50    0.00874
1653.75    0.00785
1654.00    0.00818
1654.25    0.00791
1654.50    0.00795
1654.75    0.00738
1655.00    0.00676
1655.25    0.00717
1655.50    0.00729
1655.75    0.00709
1656.00    0.00658
1656.25    0.00601
1656.50    0.00693
1656.75    0.00645
1657.00    0.00537
1657.25    0.00651
1657.50    0.00495
1657.75    0.00516
1658.00    0.00432
1658.25    0.00498
1658.50    0.00360
1658.75    0.00441
1659.00    0.00376
1659.25    0.00472
1659.50    0.00311
1659.75    0.00307
1660.00    0.00511
1660.25    0.00277
1660.50    0.00336
1660.75    0.00403
1661.00    0.00349
1661.25    0.00458
1661.50    0.00339
1661.75    0.00337
1662.00    0.00231
1662.25    0.00377
1662.50    0.00324
1662.75    0.00224
1663.00    0.00285
1663.25    0.00292
1663.50    0.00271
1663.75    0.00298
1664.00    0.00260
1664.25    0.00250
1664.50    0.00251
1664.75    0.00243
1665.00    0.00171
1665.25    0.00232
1665.50    0.00142
1665.75    0.00184
1666.00    0.00216
1666.25    0.00197
1666.50    0.00197
1666.75    0.00212
1667.00    0.00217
1667.25    0.00216
1667.50    0.00136
1667.75    0.00156
1668.00    0.00218
1668.25    0.00137
1668.50    0.00163
1668.75    0.00169
1669.00    0.00191
1669.25    0.00130
1669.50    0.00246
1669.75    0.00081
1670.00    0.00210
1670.25    0.00040
1670.50    0.00115
1670.75    0.00157
1671.00    0.00136
1671.25    0.00156
1671.50    0.00081
1671.75    0.00169
1672.00    0.00061
1672.25    0.00143
1672.50    0.00109
1672.75    0.00020
1673.00    0.00054
1673.25    0.00189
1673.50    0.00238
1673.75    0.00095
1674.00    0.00122
1674.25    0.00074
1674.50    0.00040
1674.75    0.00141
1675.00    0.00081
1675.25    0.00095
1675.50    0.00040
1675.75    0.00102
1676.00    0.00067
1676.25    0.00087
1676.50    0.00163
1676.75    0.00034
1677.00    0.00007
1677.25    0.00013
1677.50    0.00129
1677.75    0.00047
1678.00    0.00034
1678.25    0.00001
1678.50    0.00190
1678.75    0.00095
1679.00    0.00107
1679.25    0.00048
1679.50    0.00040
1679.75    0.00006
1680.00    0.00101
1680.25    0.00046
1680.50    0.00068
1680.75    0.00027
1681.00    0.00027
1681.25    0.00121
1681.50    0.00157
1681.75    0.00061
1682.00    0.00006
1682.25    0.00053
1682.50    0.00061
1682.75    0.00014
1683.00    0.00007
1683.25    0.00013
1683.50    0.00062
1683.75    0.00000
1684.00    0.00061
1684.25    0.00013
1684.50    0.00088
1684.75    0.00054
1685.00    0.00027
1685.25    0.00074
1685.50    0.00142
1685.75    0.00103
1686.00    0.00081
1686.25    0.00101
1686.50    0.00116
1686.75    0.00033
1687.00    0.00014
1687.25    0.00047
1687.50    0.00074
1687.75    0.00034
1688.00    0.00014
1688.25    0.00028
1688.50    0.00095
1688.75    0.00006
1689.00    0.00102
1689.25    0.00074
1689.50    0.00014
1689.75    0.00013
1690.00    0.00164
1690.25    0.00041
1690.50    0.00061
1690.75    0.00020
1691.00    0.00020
1691.25    0.00000
1691.50    0.00054
1691.75    0.00006
1692.00    0.00048
1692.25    0.00074
1692.50    0.00122
1692.75    0.00061
1693.00    0.00103
1693.25    0.00109
1693.50    0.00006
1693.75    0.00006
1694.00    0.00061
1694.25    0.00116
1694.50    0.00006
1694.75    0.00042
1695.00    0.00108
1695.25    0.00006
1695.50    0.00021
1695.75    0.00047
1696.00    0.00075
1696.25    0.00001
1696.50    0.00020
1696.75    0.00034
1697.00    0.00047
1697.25    0.00014
1697.50    0.00007
1697.75    0.00040
1698.00    0.00149
1698.25    0.00007
1698.50    0.00047
1698.75    0.00014
1699.00    0.00048
1699.25    0.00006
1699.50    0.00027
1699.75    0.00068
1700.00    0.00081
1700.25    0.00129
1700.50    0.00075
1700.75    0.00068
1701.00    0.00006
1701.25    0.00141
1701.50    0.00028
1701.75    0.00061
1702.00    0.00068
1702.25    0.00041
1702.50    0.00006
1702.75    0.00033
1703.00    0.00035
1703.25    0.00075
1703.50    0.00034
1703.75    0.00081
1704.00    0.00087
1704.25    0.00048
1704.50    0.00054
1704.75    0.00055
1705.00    0.00027
1705.25    0.00013
1705.50    0.00033
1705.75    0.00000
1706.00    0.00074
1706.25    0.00041
1706.50    0.00089
1706.75    0.00013
1707.00    0.00108
1707.25    0.00054
1707.50    0.00075
1707.75    0.00034
1708.00    0.00101
1708.25    0.00006
1708.50    0.00040
1708.75    0.00028
1709.00    0.00000
1709.25    0.00000
1709.50    0.00088
1709.75    0.00007
1710.00    0.00087
1710.25    0.00014
1710.50    0.00074
1710.75    0.00007
1711.00    0.00116
1711.25    0.00089
1711.50    0.00068
1711.75    0.00027
1712.00    0.00088
1712.25    0.00102
1712.50    0.00013
1712.75    0.00055
1713.00    0.00000
1713.25    0.00054
1713.50    0.00109
1713.75    0.00027
1714.00    0.00075
1714.25    0.00041
1714.50    0.00108
1714.75    0.00108
1715.00    0.00048
1715.25    0.00013
1715.50    0.00014
1715.75    0.00089
1716.00    0.00122
1716.25    0.00028
1716.50    0.00055
1716.75    0.00088
1717.00    0.00020
1717.25    0.00021
1717.50    0.00006
1717.75    0.00170
1718.00    0.00102
1718.25    0.00055
1718.50    0.00007
1718.75    0.00027
1719.00    0.00081
1719.25    0.00108
1719.50    0.00102
1719.75    0.00048
1720.00    0.00013
1720.25    0.00034
1720.50    0.00028
1720.75    0.00095
1721.00    0.00013
1721.25    0.00027
1721.50    0.00034
1721.75    0.00116
1722.00    0.00007
1722.25    0.00055
1722.50    0.00068
1722.75    0.00021
1723.00    0.00027
1723.25    0.00027
1723.50    0.00047
1723.75    0.00075
1724.00    0.00021
1724.25    0.00109
1724.50    0.00047
1724.75    0.00028
1725.00    0.00021
1725.25    0.00034
1725.50    0.00040
1725.75    0.00014
1726.00    0.00027
1726.25    0.00034
1726.50    0.00041
1726.75    0.00013
1727.00    0.00027
1727.25    0.00068
1727.50    0.00034
1727.75    0.00102
1728.00    0.00054
1728.25    0.00062
1728.50    0.00081
1728.75    0.00014
1729.00    0.00027
1729.25    0.00055
1729.50    0.00102
1729.75    0.00062
1730.00    0.00081
1730.25    0.00095
1730.50    0.00034
1730.75    0.00006
1731.00    0.00007
1731.25    0.00021
1731.50    0.00128
1731.75    0.00021
1732.00    0.00055
1732.25    0.00027
1732.50    0.00007
1732.75    0.00048
1733.00    0.00013
1733.25    0.00088
1733.50    0.00103
1733.75    0.00027
1734.00    0.00027
1734.25    0.00061
1734.50    0.00103
1734.75    0.00000
1735.00    0.00007
1735.25    0.00000
1735.50    0.00000
1735.75    0.00102
1736.00    0.00027
1736.25    0.00013
1736.50    0.00007
1736.75    0.00020
1737.00    0.00020
1737.25    0.00075
1737.50    0.00034
1737.75    0.00020
1738.00    0.00081
1738.25    0.00095
1738.50    0.00013
1738.75    0.00171
1739.00    0.00014
1739.25    0.00103
1739.50    0.00047
1739.75    0.00068
1740.00    0.00034
1740.25    0.00116
1740.50    0.00014
1740.75    0.00027
1741.00    0.00076
1741.25    0.00115
1741.50    0.00034
1741.75    0.00007
1742.00    0.00007
1742.25    0.00041
1742.50    0.00082
1742.75    0.00041
1743.00    0.00027
1743.25    0.00000
1743.50    0.00028
1743.75    0.00191
1744.00    0.00096
1744.25    0.00000
1744.50    0.00054
1744.75    0.00109
1745.00    0.00068
1745.25    0.00007
1745.50    0.00041
1745.75    0.00068
1746.00    0.00054
1746.25    0.00094
1746.50    0.00068
1746.75    0.00007
1747.00    0.00062
1747.25    0.00041
1747.50    0.00000
1747.75    0.00109
1748.00    0.00047
1748.25    0.00013
1748.50    0.00096
1748.75    0.00034
1749.00    0.00041
1749.25    0.00075
1749.50    0.00061
1750.00    0.00000
1760.00    0.00000
