# Filter ID: ED169 1
# Gemini Filter Name: H_G1103
# 42mm diameter BK7 5.17mm thickness
# Central Wavelength: 1.635 um
# Note: Measurements taken at room temp and then calculated to 
# 70K using correlation measurements from Cold test witness
# Created: 2012aug16
# Author: R. Carrasco
# Lambda(nm) Transmission
1380.00    0.00000
1390.00    0.00000
1400.00    0.00001
1400.50    0.00001
1401.00    0.00000
1401.50    0.00003
1402.00    0.00000
1402.50    0.00001
1403.00    0.00000
1403.50    0.00001
1404.00    0.00001
1404.50    0.00001
1405.00    0.00002
1405.50    0.00001
1406.00    0.00000
1406.50    0.00001
1407.00    0.00002
1407.50    0.00002
1408.00    0.00000
1408.50    0.00004
1409.00    0.00002
1409.50    0.00002
1410.00    0.00002
1410.50    0.00000
1411.00    0.00002
1411.50    0.00003
1412.00    0.00005
1412.50    0.00004
1413.00    0.00002
1413.50    0.00004
1414.00    0.00000
1414.50    0.00002
1415.00    0.00003
1415.50    0.00004
1416.00    0.00003
1416.50    0.00003
1417.00    0.00001
1417.50    0.00002
1418.00    0.00003
1418.50    0.00007
1419.00    0.00003
1419.50    0.00006
1420.00    0.00005
1420.50    0.00002
1421.00    0.00005
1421.50    0.00006
1422.00    0.00005
1422.50    0.00002
1423.00    0.00003
1423.50    0.00005
1424.00    0.00001
1424.50    0.00004
1425.00    0.00002
1425.50    0.00005
1426.00    0.00006
1426.50    0.00007
1427.00    0.00010
1427.50    0.00009
1428.00    0.00006
1428.50    0.00006
1429.00    0.00009
1429.50    0.00008
1430.00    0.00009
1430.50    0.00010
1431.00    0.00011
1431.50    0.00012
1432.00    0.00012
1432.50    0.00013
1433.00    0.00009
1433.50    0.00012
1434.00    0.00014
1434.50    0.00014
1435.00    0.00015
1435.50    0.00014
1436.00    0.00016
1436.50    0.00014
1437.00    0.00015
1437.50    0.00011
1438.00    0.00016
1438.50    0.00013
1439.00    0.00018
1439.50    0.00017
1440.00    0.00015
1440.50    0.00016
1441.00    0.00019
1441.50    0.00017
1442.00    0.00018
1442.50    0.00019
1443.00    0.00021
1443.50    0.00021
1444.00    0.00021
1444.50    0.00025
1445.00    0.00023
1445.50    0.00028
1446.00    0.00029
1446.50    0.00024
1447.00    0.00028
1447.50    0.00032
1448.00    0.00032
1448.50    0.00032
1449.00    0.00039
1449.50    0.00041
1450.00    0.00042
1450.50    0.00047
1451.00    0.00049
1451.50    0.00050
1452.00    0.00054
1452.50    0.00061
1453.00    0.00065
1453.50    0.00075
1454.00    0.00078
1454.50    0.00085
1455.00    0.00095
1455.50    0.00102
1456.00    0.00113
1456.50    0.00125
1457.00    0.00130
1457.50    0.00146
1458.00    0.00165
1458.50    0.00182
1459.00    0.00198
1459.50    0.00222
1460.00    0.00243
1460.50    0.00271
1461.00    0.00305
1461.50    0.00337
1462.00    0.00370
1462.50    0.00409
1463.00    0.00450
1463.50    0.00494
1464.00    0.00546
1464.50    0.00609
1465.00    0.00662
1465.50    0.00718
1466.00    0.00779
1466.50    0.00845
1467.00    0.00916
1467.50    0.00991
1468.00    0.01070
1468.50    0.01139
1469.00    0.01204
1469.50    0.01288
1470.00    0.01369
1470.50    0.01463
1471.00    0.01550
1471.50    0.01637
1472.00    0.01721
1472.50    0.01809
1473.00    0.01911
1473.50    0.02031
1474.00    0.02152
1474.50    0.02272
1475.00    0.02402
1475.50    0.02548
1476.00    0.02698
1476.50    0.02889
1477.00    0.03107
1477.50    0.03323
1478.00    0.03561
1478.50    0.03814
1479.00    0.04091
1479.50    0.04447
1480.00    0.04860
1480.50    0.05301
1481.00    0.05777
1481.50    0.06296
1482.00    0.06877
1482.50    0.07560
1483.00    0.08439
1483.50    0.09385
1484.00    0.10404
1484.50    0.11528
1485.00    0.12781
1485.50    0.14223
1486.00    0.16137
1486.50    0.18197
1487.00    0.20412
1487.50    0.22839
1488.00    0.25393
1488.50    0.28238
1489.00    0.31751
1489.50    0.35503
1490.00    0.39222
1490.50    0.43072
1491.00    0.47026
1491.50    0.50971
1492.00    0.55143
1492.50    0.59125
1493.00    0.62701
1493.50    0.66022
1494.00    0.68814
1494.50    0.71214
1495.00    0.73304
1495.50    0.75070
1496.00    0.76312
1496.50    0.77277
1497.00    0.77962
1497.50    0.78406
1498.00    0.78740
1498.50    0.78932
1499.00    0.79108
1499.50    0.79213
1500.00    0.79333
1500.50    0.79475
1501.00    0.79635
1501.50    0.79840
1502.00    0.80079
1502.50    0.80399
1503.00    0.80704
1503.50    0.81053
1504.00    0.81461
1504.50    0.81899
1505.00    0.82403
1505.50    0.82858
1506.00    0.83296
1506.50    0.83753
1507.00    0.84176
1507.50    0.84610
1508.00    0.84988
1508.50    0.85372
1509.00    0.85639
1509.50    0.85929
1510.00    0.86150
1510.50    0.86329
1511.00    0.86516
1511.50    0.86655
1512.00    0.86792
1512.50    0.86854
1513.00    0.86920
1513.50    0.86976
1514.00    0.86975
1514.50    0.87032
1515.00    0.87037
1515.50    0.87063
1516.00    0.87116
1516.50    0.87193
1517.00    0.87239
1517.50    0.87288
1518.00    0.87427
1518.50    0.87564
1519.00    0.87686
1519.50    0.87851
1520.00    0.88014
1520.50    0.88186
1521.00    0.88399
1521.50    0.88659
1522.00    0.88911
1522.50    0.89161
1523.00    0.89406
1523.50    0.89670
1524.00    0.89971
1524.50    0.90246
1525.00    0.90521
1525.50    0.90771
1526.00    0.90992
1526.50    0.91221
1527.00    0.91432
1527.50    0.91660
1528.00    0.91880
1528.50    0.92065
1529.00    0.92192
1529.50    0.92302
1530.00    0.92392
1530.50    0.92496
1531.00    0.92592
1531.50    0.92607
1532.00    0.92607
1532.50    0.92618
1533.00    0.92575
1533.50    0.92517
1534.00    0.92441
1534.50    0.92373
1535.00    0.92266
1535.50    0.92166
1536.00    0.92061
1536.50    0.91874
1537.00    0.91685
1537.50    0.91524
1538.00    0.91398
1538.50    0.91253
1539.00    0.91065
1539.50    0.90884
1540.00    0.90649
1540.50    0.90451
1541.00    0.90250
1541.50    0.90053
1542.00    0.89888
1542.50    0.89673
1543.00    0.89440
1543.50    0.89217
1544.00    0.88992
1544.50    0.88782
1545.00    0.88637
1545.50    0.88427
1546.00    0.88201
1546.50    0.87955
1547.00    0.87784
1547.50    0.87566
1548.00    0.87359
1548.50    0.87185
1549.00    0.86997
1549.50    0.86810
1550.00    0.86637
1550.50    0.86472
1551.00    0.86319
1551.50    0.86158
1552.00    0.86039
1552.50    0.85909
1553.00    0.85756
1553.50    0.85619
1554.00    0.85568
1554.50    0.85492
1555.00    0.85450
1555.50    0.85380
1556.00    0.85361
1556.50    0.85361
1557.00    0.85369
1557.50    0.85429
1558.00    0.85455
1558.50    0.85530
1559.00    0.85593
1559.50    0.85678
1560.00    0.85788
1560.50    0.85944
1561.00    0.86115
1561.50    0.86289
1562.00    0.86456
1562.50    0.86657
1563.00    0.86881
1563.50    0.87123
1564.00    0.87349
1564.50    0.87574
1565.00    0.87841
1565.50    0.88096
1566.00    0.88381
1566.50    0.88664
1567.00    0.88915
1567.50    0.89161
1568.00    0.89481
1568.50    0.89777
1569.00    0.90052
1569.50    0.90305
1570.00    0.90549
1570.50    0.90769
1571.00    0.90986
1571.50    0.91245
1572.00    0.91448
1572.50    0.91667
1573.00    0.91853
1573.50    0.92017
1574.00    0.92192
1574.50    0.92345
1575.00    0.92452
1575.50    0.92553
1576.00    0.92653
1576.50    0.92686
1577.00    0.92760
1577.50    0.92823
1578.00    0.92843
1578.50    0.92846
1579.00    0.92862
1579.50    0.92867
1580.00    0.92884
1580.50    0.92852
1581.00    0.92843
1581.50    0.92775
1582.00    0.92713
1582.50    0.92636
1583.00    0.92616
1583.50    0.92579
1584.00    0.92538
1584.50    0.92486
1585.00    0.92393
1585.50    0.92365
1586.00    0.92296
1586.50    0.92254
1587.00    0.92212
1587.50    0.92165
1588.00    0.92081
1588.50    0.92056
1589.00    0.92012
1589.50    0.91992
1590.00    0.91996
1590.50    0.91986
1591.00    0.91951
1591.50    0.91928
1592.00    0.91896
1592.50    0.91887
1593.00    0.91856
1593.50    0.91826
1594.00    0.91828
1594.50    0.91818
1595.00    0.91793
1595.50    0.91739
1596.00    0.91715
1596.50    0.91716
1597.00    0.91668
1597.50    0.91645
1598.00    0.91611
1598.50    0.91557
1599.00    0.91484
1599.50    0.91424
1600.00    0.91352
1600.50    0.91301
1601.00    0.91250
1601.50    0.91159
1602.00    0.91088
1602.50    0.91016
1603.00    0.90914
1603.50    0.90838
1604.00    0.90727
1604.50    0.90603
1605.00    0.90489
1605.50    0.90415
1606.00    0.90330
1606.50    0.90226
1607.00    0.90124
1607.50    0.90026
1608.00    0.89948
1608.50    0.89869
1609.00    0.89789
1609.50    0.89727
1610.00    0.89608
1610.50    0.89546
1611.00    0.89499
1611.50    0.89432
1612.00    0.89423
1612.50    0.89395
1613.00    0.89362
1613.50    0.89365
1614.00    0.89345
1614.50    0.89349
1615.00    0.89361
1615.50    0.89364
1616.00    0.89423
1616.50    0.89472
1617.00    0.89533
1617.50    0.89600
1618.00    0.89684
1618.50    0.89764
1619.00    0.89836
1619.50    0.89967
1620.00    0.90096
1620.50    0.90201
1621.00    0.90266
1621.50    0.90413
1622.00    0.90533
1622.50    0.90707
1623.00    0.90869
1623.50    0.90965
1624.00    0.91112
1624.50    0.91247
1625.00    0.91390
1625.50    0.91523
1626.00    0.91690
1626.50    0.91799
1627.00    0.91898
1627.50    0.92017
1628.00    0.92138
1628.50    0.92293
1629.00    0.92396
1629.50    0.92471
1630.00    0.92567
1630.50    0.92637
1631.00    0.92714
1631.50    0.92764
1632.00    0.92858
1632.50    0.92881
1633.00    0.92905
1633.50    0.92929
1634.00    0.92960
1634.50    0.92953
1635.00    0.92924
1635.50    0.92953
1636.00    0.92935
1636.50    0.92922
1637.00    0.92830
1637.50    0.92776
1638.00    0.92739
1638.50    0.92637
1639.00    0.92600
1639.50    0.92562
1640.00    0.92451
1640.50    0.92372
1641.00    0.92259
1641.50    0.92135
1642.00    0.92058
1642.50    0.91984
1643.00    0.91859
1643.50    0.91783
1644.00    0.91613
1644.50    0.91478
1645.00    0.91378
1645.50    0.91282
1646.00    0.91209
1646.50    0.91135
1647.00    0.91019
1647.50    0.90896
1648.00    0.90780
1648.50    0.90666
1649.00    0.90599
1649.50    0.90480
1650.00    0.90410
1650.50    0.90320
1651.00    0.90223
1651.50    0.90146
1652.00    0.90049
1652.50    0.90017
1653.00    0.89965
1653.50    0.89901
1654.00    0.89822
1654.50    0.89777
1655.00    0.89725
1655.50    0.89680
1656.00    0.89638
1656.50    0.89639
1657.00    0.89630
1657.50    0.89603
1658.00    0.89617
1658.50    0.89609
1659.00    0.89584
1659.50    0.89609
1660.00    0.89614
1660.50    0.89609
1661.00    0.89603
1661.50    0.89621
1662.00    0.89687
1662.50    0.89749
1663.00    0.89765
1663.50    0.89820
1664.00    0.89885
1664.50    0.89935
1665.00    0.90004
1665.50    0.90079
1666.00    0.90137
1666.50    0.90192
1667.00    0.90252
1667.50    0.90325
1668.00    0.90428
1668.50    0.90489
1669.00    0.90636
1669.50    0.90744
1670.00    0.90787
1670.50    0.90889
1671.00    0.90975
1671.50    0.91036
1672.00    0.91124
1672.50    0.91229
1673.00    0.91307
1673.50    0.91432
1674.00    0.91510
1674.50    0.91535
1675.00    0.91633
1675.50    0.91695
1676.00    0.91792
1676.50    0.91888
1677.00    0.91921
1677.50    0.91922
1678.00    0.91996
1678.50    0.92054
1679.00    0.92129
1679.50    0.92175
1680.00    0.92192
1680.50    0.92214
1681.00    0.92253
1681.50    0.92248
1682.00    0.92255
1682.50    0.92249
1683.00    0.92226
1683.50    0.92250
1684.00    0.92257
1684.50    0.92197
1685.00    0.92216
1685.50    0.92207
1686.00    0.92147
1686.50    0.92163
1687.00    0.92117
1687.50    0.92071
1688.00    0.92043
1688.50    0.92008
1689.00    0.91945
1689.50    0.91913
1690.00    0.91899
1690.50    0.91861
1691.00    0.91850
1691.50    0.91786
1692.00    0.91723
1692.50    0.91709
1693.00    0.91693
1693.50    0.91641
1694.00    0.91612
1694.50    0.91585
1695.00    0.91551
1695.50    0.91548
1696.00    0.91550
1696.50    0.91504
1697.00    0.91506
1697.50    0.91478
1698.00    0.91466
1698.50    0.91469
1699.00    0.91437
1699.50    0.91382
1700.00    0.91425
1700.50    0.91408
1701.00    0.91349
1701.50    0.91380
1702.00    0.91410
1702.50    0.91393
1703.00    0.91385
1703.50    0.91372
1704.00    0.91368
1704.50    0.91319
1705.00    0.91301
1705.50    0.91276
1706.00    0.91248
1706.50    0.91268
1707.00    0.91247
1707.50    0.91237
1708.00    0.91214
1708.50    0.91127
1709.00    0.91111
1709.50    0.91110
1710.00    0.91063
1710.50    0.90989
1711.00    0.90936
1711.50    0.90864
1712.00    0.90829
1712.50    0.90802
1713.00    0.90775
1713.50    0.90731
1714.00    0.90691
1714.50    0.90597
1715.00    0.90539
1715.50    0.90465
1716.00    0.90413
1716.50    0.90358
1717.00    0.90317
1717.50    0.90250
1718.00    0.90190
1718.50    0.90177
1719.00    0.90138
1719.50    0.90109
1720.00    0.90120
1720.50    0.90088
1721.00    0.90044
1721.50    0.90061
1722.00    0.90034
1722.50    0.89975
1723.00    0.89977
1723.50    0.90028
1724.00    0.90053
1724.50    0.90100
1725.00    0.90105
1725.50    0.90158
1726.00    0.90232
1726.50    0.90296
1727.00    0.90358
1727.50    0.90421
1728.00    0.90491
1728.50    0.90536
1729.00    0.90631
1729.50    0.90747
1730.00    0.90861
1730.50    0.90983
1731.00    0.91119
1731.50    0.91218
1732.00    0.91292
1732.50    0.91430
1733.00    0.91558
1733.50    0.91663
1734.00    0.91778
1734.50    0.91893
1735.00    0.92008
1735.50    0.92139
1736.00    0.92273
1736.50    0.92414
1737.00    0.92499
1737.50    0.92602
1738.00    0.92707
1738.50    0.92792
1739.00    0.92875
1739.50    0.92933
1740.00    0.93012
1740.50    0.93093
1741.00    0.93149
1741.50    0.93185
1742.00    0.93231
1742.50    0.93255
1743.00    0.93295
1743.50    0.93343
1744.00    0.93341
1744.50    0.93305
1745.00    0.93277
1745.50    0.93278
1746.00    0.93271
1746.50    0.93228
1747.00    0.93187
1747.50    0.93151
1748.00    0.93054
1748.50    0.92956
1749.00    0.92886
1749.50    0.92785
1750.00    0.92716
1750.50    0.92604
1751.00    0.92489
1751.50    0.92373
1752.00    0.92215
1752.50    0.92091
1753.00    0.91981
1753.50    0.91816
1754.00    0.91647
1754.50    0.91507
1755.00    0.91331
1755.50    0.91077
1756.00    0.90872
1756.50    0.90669
1757.00    0.90482
1757.50    0.90265
1758.00    0.90006
1758.50    0.89744
1759.00    0.89405
1759.50    0.89121
1760.00    0.88793
1760.50    0.88391
1761.00    0.88010
1761.50    0.87563
1762.00    0.87096
1762.50    0.86630
1763.00    0.86136
1763.50    0.85563
1764.00    0.84954
1764.50    0.84261
1765.00    0.83472
1765.50    0.82653
1766.00    0.81836
1766.50    0.80891
1767.00    0.79869
1767.50    0.78761
1768.00    0.77648
1768.50    0.76335
1769.00    0.75092
1769.50    0.73747
1770.00    0.72197
1770.50    0.70604
1771.00    0.68944
1771.50    0.67126
1772.00    0.65293
1772.50    0.63470
1773.00    0.61595
1773.50    0.59549
1774.00    0.57418
1774.50    0.55282
1775.00    0.53109
1775.50    0.50973
1776.00    0.48899
1776.50    0.46825
1777.00    0.44495
1777.50    0.42240
1778.00    0.40098
1778.50    0.37949
1779.00    0.36016
1779.50    0.34072
1780.00    0.32176
1780.50    0.30102
1781.00    0.28263
1781.50    0.26519
1782.00    0.24908
1782.50    0.23459
1783.00    0.21987
1783.50    0.20432
1784.00    0.19012
1784.50    0.17725
1785.00    0.16544
1785.50    0.15494
1786.00    0.14461
1786.50    0.13371
1787.00    0.12363
1787.50    0.11510
1788.00    0.10702
1788.50    0.10007
1789.00    0.09334
1789.50    0.08676
1790.00    0.08002
1790.50    0.07406
1791.00    0.06897
1791.50    0.06449
1792.00    0.06017
1792.50    0.05603
1793.00    0.05183
1793.50    0.04797
1794.00    0.04461
1794.50    0.04166
1795.00    0.03891
1795.50    0.03637
1796.00    0.03369
1796.50    0.03124
1797.00    0.02909
1797.50    0.02727
1798.00    0.02559
1798.50    0.02395
1799.00    0.02243
1799.50    0.02078
1800.00    0.01937
1800.50    0.01818
1801.00    0.01699
1801.50    0.01589
1802.00    0.01485
1802.50    0.01388
1803.00    0.01287
1803.50    0.01213
1804.00    0.01147
1804.50    0.01080
1805.00    0.01016
1805.50    0.00948
1806.00    0.00877
1806.50    0.00822
1807.00    0.00776
1807.50    0.00734
1808.00    0.00692
1808.50    0.00649
1809.00    0.00612
1809.50    0.00574
1810.00    0.00539
1810.50    0.00510
1811.00    0.00479
1811.50    0.00452
1812.00    0.00422
1812.50    0.00396
1813.00    0.00375
1813.50    0.00354
1814.00    0.00335
1814.50    0.00318
1815.00    0.00299
1815.50    0.00282
1816.00    0.00265
1816.50    0.00250
1817.00    0.00234
1817.50    0.00227
1818.00    0.00213
1818.50    0.00201
1819.00    0.00195
1819.50    0.00186
1820.00    0.00171
1820.50    0.00160
1821.00    0.00155
1821.50    0.00143
1822.00    0.00133
1822.50    0.00130
1823.00    0.00124
1823.50    0.00119
1824.00    0.00111
1824.50    0.00106
1825.00    0.00101
1825.50    0.00097
1826.00    0.00091
1826.50    0.00088
1827.00    0.00083
1827.50    0.00077
1828.00    0.00072
1828.50    0.00072
1829.00    0.00069
1829.50    0.00066
1830.00    0.00060
1830.50    0.00057
1831.00    0.00057
1831.50    0.00048
1832.00    0.00046
1832.50    0.00047
1833.00    0.00048
1833.50    0.00043
1834.00    0.00045
1834.50    0.00041
1835.00    0.00036
1835.50    0.00038
1836.00    0.00031
1836.50    0.00038
1837.00    0.00031
1837.50    0.00030
1838.00    0.00028
1838.50    0.00027
1839.00    0.00025
1839.50    0.00024
1840.00    0.00030
1840.50    0.00022
1841.00    0.00021
1841.50    0.00018
1842.00    0.00020
1842.50    0.00017
1843.00    0.00018
1843.50    0.00015
1844.00    0.00018
1844.50    0.00015
1845.00    0.00018
1845.50    0.00011
1846.00    0.00013
1846.50    0.00014
1847.00    0.00014
1847.50    0.00011
1848.00    0.00013
1848.50    0.00011
1849.00    0.00014
1849.50    0.00012
1850.00    0.00010
1850.50    0.00008
1851.00    0.00010
1851.50    0.00011
1852.00    0.00010
1852.50    0.00009
1853.00    0.00011
1853.50    0.00007
1854.00    0.00010
1854.50    0.00006
1855.00    0.00003
1855.50    0.00005
1856.00    0.00007
1856.50    0.00003
1857.00    0.00006
1857.50    0.00005
1858.00    0.00004
1858.50    0.00003
1859.00    0.00005
1859.50    0.00002
1860.00    0.00007
1860.50    0.00007
1861.00    0.00004
1861.50    0.00004
1862.00    0.00002
1862.50    0.00002
1863.00    0.00004
1863.50    0.00001
1864.00    0.00009
1864.50    0.00000
1865.00    0.00004
1865.50    0.00003
1866.00    0.00000
1866.50    0.00003
1867.00    0.00002
1867.50    0.00003
1868.00    0.00004
1868.50    0.00000
1869.00    0.00005
1869.50    0.00001
1870.00    0.00002
1870.50    0.00003
1871.00    0.00002
1871.50    0.00001
1872.00    0.00001
1872.50    0.00004
1873.00    0.00001
1873.50    0.00001
1874.00    0.00001
1874.50    0.00002
1875.00    0.00002
1875.50    0.00000
1876.00    0.00001
1876.50    0.00001
1877.00    0.00001
1877.50    0.00001
1878.00    0.00001
1878.50    0.00002
1879.00    0.00001
1879.50    0.00001
1880.00    0.00001
1880.50    0.00000
1881.00    0.00000
1881.50    0.00004
1882.00    0.00002
1882.50    0.00003
1883.00    0.00001
1883.50    0.00001
1884.00    0.00002
1884.50    0.00002
1885.00    0.00001
1885.50    0.00002
1886.00    0.00001
1886.50    0.00003
1887.00    0.00001
1887.50    0.00003
1888.00    0.00000
1888.50    0.00001
1889.00    0.00004
1889.50    0.00002
1890.00    0.00002
1890.50    0.00002
1891.00    0.00004
1891.50    0.00001
1892.00    0.00000
1892.50    0.00003
1893.00    0.00000
1893.50    0.00001
1894.00    0.00002
1894.50    0.00001
1895.00    0.00002
1895.50    0.00001
1896.00    0.00000
1896.50    0.00000
1897.00    0.00001
1897.50    0.00001
1898.00    0.00000
1898.50    0.00000
1899.00    0.00001
1899.50    0.00001
1900.00    0.00002
1910.00    0.00000
1920.00    0.00000
