# Filter ID: ED190
# Gemini Filter Name: Jcont_G1107
# 42mm diameter BK7 5.17mm thickness
# Central Wavelength: 1.207 um
# Note: Measurements taken at room temp and then calculated to 
# 70K using correlation measurements from Cold test witness
# Created: 2012aug16
# Author: R. Carrasco
# Lambda(nm) Transmission
1140.00    0.00000
1150.00    0.00000
1160.00    0.00013
1160.25    0.00018
1160.50    0.00052
1160.75    0.00000
1161.00    0.00024
1161.25    0.00023
1161.50    0.00002
1161.75    0.00005
1162.00    0.00030
1162.25    0.00024
1162.50    0.00006
1162.75    0.00015
1163.00    0.00016
1163.25    0.00033
1163.50    0.00009
1163.75    0.00016
1164.00    0.00030
1164.25    0.00014
1164.50    0.00027
1164.75    0.00012
1165.00    0.00007
1165.25    0.00002
1165.50    0.00006
1165.75    0.00007
1166.00    0.00005
1166.25    0.00019
1166.50    0.00016
1166.75    0.00002
1167.00    0.00018
1167.25    0.00007
1167.50    0.00008
1167.75    0.00023
1168.00    0.00012
1168.25    0.00000
1168.50    0.00008
1168.75    0.00035
1169.00    0.00030
1169.25    0.00007
1169.50    0.00022
1169.75    0.00013
1170.00    0.00013
1170.25    0.00012
1170.50    0.00034
1170.75    0.00016
1171.00    0.00018
1171.25    0.00027
1171.50    0.00026
1171.75    0.00011
1172.00    0.00025
1172.25    0.00025
1172.50    0.00020
1172.75    0.00009
1173.00    0.00050
1173.25    0.00030
1173.50    0.00031
1173.75    0.00019
1174.00    0.00031
1174.25    0.00028
1174.50    0.00021
1174.75    0.00006
1175.00    0.00056
1175.25    0.00021
1175.50    0.00031
1175.75    0.00022
1176.00    0.00034
1176.25    0.00028
1176.50    0.00051
1176.75    0.00025
1177.00    0.00046
1177.25    0.00062
1177.50    0.00052
1177.75    0.00015
1178.00    0.00060
1178.25    0.00047
1178.50    0.00054
1178.75    0.00063
1179.00    0.00043
1179.25    0.00044
1179.50    0.00067
1179.75    0.00088
1180.00    0.00087
1180.25    0.00038
1180.50    0.00058
1180.75    0.00065
1181.00    0.00091
1181.25    0.00069
1181.50    0.00095
1181.75    0.00087
1182.00    0.00085
1182.25    0.00099
1182.50    0.00117
1182.75    0.00090
1183.00    0.00092
1183.25    0.00146
1183.50    0.00097
1183.75    0.00127
1184.00    0.00134
1184.25    0.00148
1184.50    0.00139
1184.75    0.00199
1185.00    0.00165
1185.25    0.00175
1185.50    0.00208
1185.75    0.00194
1186.00    0.00199
1186.25    0.00218
1186.50    0.00271
1186.75    0.00267
1187.00    0.00301
1187.25    0.00327
1187.50    0.00355
1187.75    0.00331
1188.00    0.00417
1188.25    0.00428
1188.50    0.00474
1188.75    0.00514
1189.00    0.00566
1189.25    0.00609
1189.50    0.00655
1189.75    0.00693
1190.00    0.00740
1190.25    0.00829
1190.50    0.00904
1190.75    0.01003
1191.00    0.01089
1191.25    0.01255
1191.50    0.01327
1191.75    0.01494
1192.00    0.01661
1192.25    0.01842
1192.50    0.02015
1192.75    0.02245
1193.00    0.02564
1193.25    0.02779
1193.50    0.03165
1193.75    0.03547
1194.00    0.03991
1194.25    0.04513
1194.50    0.05030
1194.75    0.05788
1195.00    0.06393
1195.25    0.07389
1195.50    0.08500
1195.75    0.09558
1196.00    0.11030
1196.25    0.12284
1196.50    0.14287
1196.75    0.15976
1197.00    0.18401
1197.25    0.20985
1197.50    0.23349
1197.75    0.26794
1198.00    0.29471
1198.25    0.33416
1198.50    0.36777
1198.75    0.40744
1199.00    0.44940
1199.25    0.48006
1199.50    0.52754
1199.75    0.55063
1200.00    0.58584
1200.25    0.61355
1200.50    0.63685
1200.75    0.65958
1201.00    0.67262
1201.25    0.68739
1201.50    0.69488
1201.75    0.70203
1202.00    0.70620
1202.25    0.70817
1202.50    0.70875
1202.75    0.70806
1203.00    0.70703
1203.25    0.70547
1203.50    0.70371
1203.75    0.70138
1204.00    0.69977
1204.25    0.69741
1204.50    0.69598
1204.75    0.69428
1205.00    0.69311
1205.25    0.69185
1205.50    0.69110
1205.75    0.69037
1206.00    0.68953
1206.25    0.68897
1206.50    0.68883
1206.75    0.68808
1207.00    0.68809
1207.25    0.68801
1207.50    0.68792
1207.75    0.68729
1208.00    0.68725
1208.25    0.68702
1208.50    0.68683
1208.75    0.68686
1209.00    0.68738
1209.25    0.68734
1209.50    0.68757
1209.75    0.68795
1210.00    0.68822
1210.25    0.68881
1210.50    0.68935
1210.75    0.69054
1211.00    0.69175
1211.25    0.69317
1211.50    0.69446
1211.75    0.69593
1212.00    0.69767
1212.25    0.69898
1212.50    0.70060
1212.75    0.70221
1213.00    0.70341
1213.25    0.70422
1213.50    0.70452
1213.75    0.70390
1214.00    0.70294
1214.25    0.70046
1214.50    0.69680
1214.75    0.69204
1215.00    0.68363
1215.25    0.67635
1215.50    0.66259
1215.75    0.64998
1216.00    0.63094
1216.25    0.60981
1216.50    0.59040
1216.75    0.56090
1217.00    0.53899
1217.25    0.50396
1217.50    0.47476
1217.75    0.44126
1218.00    0.40436
1218.25    0.37650
1218.50    0.33933
1218.75    0.31420
1219.00    0.28018
1219.25    0.25218
1219.50    0.22651
1219.75    0.19902
1220.00    0.18164
1220.25    0.15752
1220.50    0.14322
1220.75    0.12493
1221.00    0.10958
1221.25    0.09851
1221.50    0.08578
1221.75    0.07785
1222.00    0.06729
1222.25    0.06012
1222.50    0.05285
1222.75    0.04679
1223.00    0.04237
1223.25    0.03697
1223.50    0.03347
1223.75    0.02937
1224.00    0.02645
1224.25    0.02393
1224.50    0.02102
1224.75    0.01926
1225.00    0.01708
1225.25    0.01574
1225.50    0.01412
1225.75    0.01215
1226.00    0.01142
1226.25    0.01061
1226.50    0.00952
1226.75    0.00849
1227.00    0.00778
1227.25    0.00716
1227.50    0.00678
1227.75    0.00585
1228.00    0.00516
1228.25    0.00506
1228.50    0.00480
1228.75    0.00390
1229.00    0.00357
1229.25    0.00379
1229.50    0.00325
1229.75    0.00259
1230.00    0.00300
1230.25    0.00292
1230.50    0.00243
1230.75    0.00233
1231.00    0.00204
1231.25    0.00221
1231.50    0.00189
1231.75    0.00175
1232.00    0.00157
1232.25    0.00149
1232.50    0.00146
1232.75    0.00127
1233.00    0.00131
1233.25    0.00118
1233.50    0.00103
1233.75    0.00111
1234.00    0.00091
1234.25    0.00085
1234.50    0.00112
1234.75    0.00068
1235.00    0.00064
1235.25    0.00076
1235.50    0.00055
1235.75    0.00116
1236.00    0.00035
1236.25    0.00053
1236.50    0.00042
1236.75    0.00066
1237.00    0.00073
1237.25    0.00057
1237.50    0.00057
1237.75    0.00057
1238.00    0.00036
1238.25    0.00046
1238.50    0.00055
1238.75    0.00048
1239.00    0.00048
1239.25    0.00033
1239.50    0.00054
1239.75    0.00041
1240.00    0.00045
1240.25    0.00021
1240.50    0.00061
1240.75    0.00085
1241.00    0.00051
1241.25    0.00027
1241.50    0.00027
1241.75    0.00071
1242.00    0.00015
1242.25    0.00033
1242.50    0.00006
1242.75    0.00019
1243.00    0.00098
1243.25    0.00041
1243.50    0.00031
1243.75    0.00003
1244.00    0.00057
1244.25    0.00019
1244.50    0.00047
1244.75    0.00001
1245.00    0.00028
1245.25    0.00040
1245.50    0.00047
1245.75    0.00025
1246.00    0.00034
1246.25    0.00028
1246.50    0.00029
1246.75    0.00012
1247.00    0.00065
1247.25    0.00004
1247.50    0.00010
1247.75    0.00009
1248.00    0.00018
1248.25    0.00023
1248.50    0.00028
1248.75    0.00029
1249.00    0.00009
1249.25    0.00015
1249.50    0.00023
1249.75    0.00013
1250.00    0.00001
1260.00    0.00000
1270.00    0.00000
